Folder: rayflare/examples/data

Note: examples/data/CsBr10p_1to2_k.txt
3.10E-07	9.60E-01
3.14E-07	9.95E-01
3.18E-07	1.03E+00
3.22E-07	1.06E+00
3.26E-07	1.09E+00
3.31E-07	1.12E+00
3.35E-07	1.13E+00
3.40E-07	1.14E+00
3.44E-07	1.13E+00
3.49E-07	1.12E+00
3.54E-07	1.09E+00
3.59E-07	1.05E+00
3.65E-07	1.01E+00
3.70E-07	9.56E-01
3.76E-07	9.04E-01
3.82E-07	8.52E-01
3.88E-07	8.04E-01
3.94E-07	7.60E-01
4.00E-07	7.23E-01
4.07E-07	6.92E-01
4.13E-07	6.67E-01
4.20E-07	6.48E-01
4.28E-07	6.33E-01
4.35E-07	6.22E-01
4.43E-07	6.12E-01
4.51E-07	6.02E-01
4.59E-07	5.88E-01
4.68E-07	5.68E-01
4.77E-07	5.40E-01
4.86E-07	5.04E-01
4.96E-07	4.61E-01
5.06E-07	4.14E-01
5.17E-07	3.65E-01
5.28E-07	3.20E-01
5.39E-07	2.80E-01
5.51E-07	2.46E-01
5.64E-07	2.19E-01
5.77E-07	1.98E-01
5.90E-07	1.83E-01
6.05E-07	1.73E-01
6.20E-07	1.67E-01
6.36E-07	1.65E-01
6.53E-07	1.65E-01
6.70E-07	1.64E-01
6.89E-07	1.52E-01
7.09E-07	1.09E-01
7.29E-07	3.98E-02
7.52E-07	2.67E-03
7.75E-07	0.00E+00
8.00E-07	0.00E+00
8.27E-07	0.00E+00
8.55E-07	0.00E+00
8.86E-07	0.00E+00
9.19E-07	0.00E+00
9.54E-07	0.00E+00
9.92E-07	0.00E+00
1.03E-06	0.00E+00
1.08E-06	0.00E+00
1.13E-06	0.00E+00
1.18E-06	0.00E+00
1.24E-06	0.00E+00
1.31E-06	0.00E+00
1.38E-06	0.00E+00
1.46E-06	0.00E+00
1.55E-06	0.00E+00
1.65E-06	0.00E+00
1.77E-06	0.00E+00
1.91E-06	0.00E+00
2.07E-06	0.00E+00

Note: examples/data/CsBr10p_1to2_n.txt
3.10E-07	1.74E+00	
3.14E-07	1.77E+00	
3.18E-07	1.81E+00	
3.22E-07	1.85E+00	
3.26E-07	1.90E+00	
3.31E-07	1.95E+00	
3.35E-07	2.02E+00	
3.40E-07	2.08E+00	
3.44E-07	2.15E+00	
3.49E-07	2.22E+00	
3.54E-07	2.29E+00	
3.59E-07	2.35E+00	
3.65E-07	2.40E+00	
3.70E-07	2.44E+00	
3.76E-07	2.47E+00	
3.82E-07	2.48E+00	
3.88E-07	2.49E+00	
3.94E-07	2.50E+00	
4.00E-07	2.50E+00	
4.07E-07	2.49E+00	
4.13E-07	2.49E+00	
4.20E-07	2.48E+00	
4.28E-07	2.48E+00	
4.35E-07	2.48E+00	
4.43E-07	2.49E+00	
4.51E-07	2.50E+00	
4.59E-07	2.52E+00	
4.68E-07	2.54E+00	
4.77E-07	2.57E+00	
4.86E-07	2.59E+00	
4.96E-07	2.60E+00	
5.06E-07	2.61E+00	
5.17E-07	2.61E+00	
5.28E-07	2.59E+00	
5.39E-07	2.57E+00	
5.51E-07	2.55E+00	
5.64E-07	2.52E+00	
5.77E-07	2.50E+00	
5.90E-07	2.47E+00	
6.05E-07	2.45E+00	
6.20E-07	2.43E+00	
6.36E-07	2.41E+00	
6.53E-07	2.40E+00	
6.70E-07	2.41E+00	
6.89E-07	2.42E+00	
7.09E-07	2.44E+00	
7.29E-07	2.42E+00	
7.52E-07	2.36E+00	
7.75E-07	2.30E+00	
8.00E-07	2.26E+00	
8.27E-07	2.24E+00	
8.55E-07	2.22E+00	
8.86E-07	2.20E+00	
9.19E-07	2.19E+00	
9.54E-07	2.18E+00	
9.92E-07	2.17E+00	
1.03E-06	2.16E+00	
1.08E-06	2.15E+00	
1.13E-06	2.14E+00	
1.18E-06	2.13E+00	
1.24E-06	2.13E+00	
1.31E-06	2.12E+00	
1.38E-06	2.11E+00	
1.46E-06	2.11E+00	
1.55E-06	2.10E+00	
1.65E-06	2.10E+00	
1.77E-06	2.09E+00	
1.91E-06	2.09E+00	
2.07E-06	2.08E+00

Note: examples/data/GaAs_subs.txt
250	2.65681946	4.20258127
255	3.24081375	4.05009881
260	3.6158552	3.70936785
265	3.79381556	3.39307722
270	3.9236163	3.16119731
275	4.0555612	2.90687181
280	4.11077407	2.62130751
285	4.07718356	2.36547146
290	3.99164949	2.17404699
295	3.89190033	2.04683981
300	3.79959633	1.96870586
305	3.72270085	1.92355367
310	3.66256622	1.89976092
315	3.61814996	1.88986238
320	3.58658475	1.8884993
325	3.5655227	1.8928936
330	3.55305061	1.90162946
335	3.54798288	1.91427086
340	3.54964513	1.93045685
345	3.55774633	1.95014337
350	3.57244179	1.97321102
355	3.59432065	1.99966171
360	3.62383736	2.02930463
365	3.66205829	2.06207732
370	3.7106531	2.09795097
375	3.77111888	2.13658677
380	3.84587886	2.17920229
385	3.94665212	2.23157753
390	4.11032381	2.27004011
395	4.30892555	2.2161897
400	4.44120962	2.08670626
405	4.4969302	1.9726782
410	4.53159914	1.9092949
415	4.59264393	1.89252023
420	4.73417324	1.88876666
425	4.9699694	1.78593754
430	5.12887582	1.49673131
435	5.10623553	1.21455655
440	5.02218681	1.01947198
445	4.93384647	0.882959808
450	4.84749864	0.776901549
455	4.76524201	0.695408738
460	4.68903891	0.631766829
465	4.61999647	0.581993264
470	4.55765832	0.541593337
475	4.50244948	0.50893961
480	4.45267753	0.480813212
485	4.40794847	0.456368732
490	4.36732101	0.434604463
495	4.32980907	0.41477877
500	4.29491962	0.396654699
505	4.26269589	0.380321898
510	4.23233072	0.365368513
515	4.20376164	0.351668317
520	4.17683629	0.339107623
525	4.15154025	0.327566926
530	4.12763857	0.316995277
535	4.10510112	0.307309649
540	4.08387952	0.298362387
545	4.06378009	0.290064551
550	4.04472344	0.282352325
555	4.02675509	0.275162483
560	4.00963265	0.268435499
565	3.99346269	0.262122419
570	3.97812105	0.256167642
575	3.96357432	0.250535986
580	3.94977592	0.245185837
585	3.93660278	0.240076106
590	3.92420554	0.235219217
595	3.91240083	0.230545596
600	3.9011498	0.226035847
605	3.89036124	0.221680132
610	3.88008098	0.217447886
615	3.87029479	0.213317801
620	3.8608037	0.209295794
625	3.85189864	0.20539589
630	3.84341545	0.201567112
635	3.83523902	0.197802362
640	3.82732056	0.194095793
645	3.81977249	0.190458883
650	3.81258393	0.186883257
655	3.80570867	0.183345404
660	3.79912912	0.179839888
665	3.79283765	0.176374201
670	3.78692867	0.172884419
675	3.78129124	0.169341168
680	3.77594624	0.165656102
685	3.77086057	0.161664138
690	3.76584756	0.157449434
695	3.76076605	0.152852765
700	3.75529903	0.148149611
705	3.74960394	0.143424962
710	3.74350687	0.139065252
715	3.73732916	0.135056196
720	3.7310601	0.131443876
725	3.72511073	0.128367302
730	3.71929178	0.125452156
735	3.71393801	0.122870966
740	3.70874304	0.120348752
745	3.70381067	0.117927575
750	3.69912319	0.115548138
755	3.69459634	0.113194643
760	3.69032027	0.110875382
765	3.68611233	0.108562121
770	3.68218891	0.106282015
775	3.67828985	0.104000775
780	3.67469183	0.101751649
785	3.67110007	0.0994994087
790	3.66772241	0.0972741795
795

Note: examples/data/Si.txt
0.25	1.665	3.661
0.26	1.757	4.076
0.27	2.068	4.684
0.28	2.959	5.281
0.29	4.356	5.285
0.3	4.976	4.226
0.31	5.121	3.602
0.32	5.112	3.31
0.33	5.195	3.099
0.34	5.301	2.976
0.35	5.494	2.952
0.36	6.026	2.979
0.37	6.891	2.17
0.38	6.616	0.9465
0.39	6.039	0.4438
0.4	5.613	0.296
0.41	5.33	0.2268
0.42	5.119	0.1761
0.43	4.949	0.1376
0.44	4.812	0.1075
0.45	4.691	0.0863
0.46	4.587	0.07138
0.47	4.497	0.06209
0.48	4.419	0.055
0.49	4.35	0.04913
0.5	4.294	0.04417
0.51	4.241	0.03937
0.52	4.193	0.03641
0.53	4.151	0.03311
0.54	4.112	0.0303
0.55	4.077	0.02797
0.56	4.045	0.02576
0.57	4.015	0.02413
0.58	3.988	0.02252
0.59	3.963	0.02108
0.6	3.94	0.01993
0.61	3.918	0.01845
0.62	3.898	0.01737
0.63	3.879	0.01644
0.64	3.861	0.01543
0.65	3.844	0.01443
0.66	3.828	0.0135
0.67	3.813	0.01274
0.68	3.798	0.0119
0.69	3.784	0.0112
0.7	3.772	0.01053
0.71	3.759	0.01006
0.72	3.748	0.00963
0.73	3.737	0.00895
0.74	3.727	0.00836
0.75	3.717	0.00782
0.76	3.708	0.0072
0.77	3.699	0.00674
0.78	3.691	0.00639
0.79	3.683	0.00583
0.8	3.675	0.00541
0.81	3.668	0.005
0.82	3.661	0.00461
0.83	3.654	0.00427
0.84	3.647	0.00394
0.85	3.641	0.00361
0.86	3.635	0.00328
0.87	3.63	0.00298
0.88	3.624	0.00268
0.89	3.619	0.00243
0.9	3.614	0.00217
0.91	3.609	0.00196
0.92	3.604	0.00176
0.93	3.6	0.00155
0.94	3.595	0.00137
0.95	3.591	0.00118
0.96	3.587	0.00102
0.97	3.583	8.722E-4
0.98	3.579	7.487E-4
0.99	3.575	6.224E-4
1	3.572	5.093E-4
1.01	3.568	4.107E-4
1.02	3.565	3.239E-4
1.03	3.562	2.475E-4
1.04	3.559	1.87E-4
1.05	3.556	1.362E-4
1.06	3.553	9.363E-5
1.07	3.55	6.812E-5
1.08	3.547	5.329E-5
1.09	3.545	4.077E-5
1.1	3.542	3.064E-5
1.11	3.54	2.385E-5
1.12	3.537	1.783E-5
1.13	3.535	1.349E-5
1.14	3.532	9.072E-6
1.15	3.53	6.223E-6
1.16	3.528	3.877E-6
1.17	3.526	2.048E-6
1.18	3.524	6.104E-7
1.19	3.522	3.409E-7
1.2	3.52	2.101E-7
1.21	3.518	1.252E-7
1.22	3.517	7.961E-8
1.23	3.515	4.6E-8
1.24	3.513	2.368E-8
1.25	3.511	9.947E-9
1.26	3.509	3.61E-9
1.27	3.508	2.021E-9
1.28	3.506	1.222E-9
1.29	3.505	7.289E-10
1.3	3.503	4.655E-10
1.31	3.502	2.815E-10
1.32	3.5	1.681E-10
1.33	3.499	8.467E-11
1.34	3.497	3.732E-11
1.35	3.496	1.826E-11
1.36	3.495	1.028E-11
1.37	3.494	6.541E-12
1.38	3.492	4.173E-12
1.39	3.491	2.544E-12
1.4	3.49	1.56E-12
1.41	3.489	9.537E-13
1.42	3.488	5.65E-13
1.43	3.487	2.845E-13
1.44	3.486	2.063E-13
1.45	3.485	1.385E-13

File: RAT_data.csv
Wavelength(nm),Spectral intensity (W m-2 nm-1),Reflection (Total),Reflection (External),Reflection (Escape),Absorption (Substrate),Absorption (Front films),Absorption (Rear films),Absorption (Detached reflector),Transmission,Pathlength enhancement factor (z)
900,0.652625,0.0639465,0.0639465,0,0.935816,0,0,0,0,1.3667
905,0.7506,0.0668585,0.0668585,0,0.932766,0,0,0,0,1.36383
910,0.663775,0.078926,0.078926,0,0.920534,0,0,0,0,1.37467
915,0.644275,0.0672318,0.0672318,0,0.931806,0,0,0,0,1.34825
920,0.71375,0.0643904,0.0643904,0,0.934377,0,0,0,0,1.38173
925,0.72535,0.0604635,0.0604635,0,0.937335,0,0,0,0,1.34957
930,0.459025,0.0900192,0.0900192,0,0.906971,0,0,0,0.000119,1.36618
935,0.195225,0.0772285,0.0772285,0,0.919568,0,0,0,9.88938e-05,1.44572
940,0.364525,0.0758019,0.0758019,0,0.91988,0,0,0,7.04209e-05,1.46653
945,0.299525,0.0650515,0.0650515,0,0.932153,0,0,0,9.31588e-05,1.71648
950,0.3369,0.0631098,0.0631098,0,0.935995,0,0,0,0.000103752,2.23494
955,0.343475,0.0999125,0.0999125,0,0.898717,0,0,0,0.000143924,2.24455
960,0.427425,0.0663141,0.0663141,0,0.932288,0,0,0,0,2.42758
965,0.49515,0.0542393,0.0542393,0,0.942799,0,0,0,0.000476353,2.33942
970,0.66725,0.0846461,0.0846461,0,0.912971,0,0,0,0.000314693,2.64064
975,0.596225,0.0698962,0.0698962,0,0.926577,0,0,0,0.000390141,2.67583
980,0.650625,0.0706853,0.0706853,0,0.924692,0,0,0,0.000827049,2.77255
985,0.715275,0.0667173,0.0667173,0,0.926843,0,0,0,0.000477113,2.84898
990,0.74175,0.0914552,0.0874847,0.00397047,0.90721,0,0,0,0,3.25797
995,0.744725,0.0685546,0.0623259,0.00622869,0.928939,0,0,0,0,3.27389
1000,0.734975,0.0704445,0.0614104,0.00903412,0.926427,0,0,0,0.00051633,3.39988
1005,0.71365,0.101761,0.0880185,0.0137421,0.893897,0,0,0,0.00230126,3.43018
1010,0.719575,0.087183,0.0680946,0.0190883,0.905175,0,0,0,0.0050425,3.47714
1015,0.7105,0.0922723,0.0644809,0.0277914,0.897973,0,0,0,0.00762307,3.54762
1020,0.69665,0.128365,0.0952359,0.0331296,0.862793,0,0,0,0.00654279,3.85849
1025,0.6925,0.128745,0.0847302,0.0440148,0.858879,0,0,0,0.0102695,4.0214
1030,0.686875,0.132534,0.081145,0.0513886,0.850176,0,0,0,0.0143347,4.30125
1035,0.677225,0.155518,0.085075,0.0704432,0.822535,0,0,0,0.0191633,4.34785
1040,0.6707,0.17506,0.0846128,0.0904473,0.802227,0,0,0,0.0202771,4.66078
1045,0.658725,0.166288,0.0600449,0.106243,0.796502,0,0,0,0.0351656,4.84646
1050,0.6544,0.21656,0.0866146,0.129945,0.745171,0,0,0,0.0354718,5.19242
1055,0.645275,0.232239,0.0804699,0.151769,0.718536,0,0,0,0.0466678,5.55652
1060,0.627325,0.22983,0.072192,0.157637,0.714495,0,0,0,0.0530465,6.62943
1065,0.622625,0.244541,0.0439841,0.200557,0.680361,0,0,0,0.0726533,6.54459
1070,0.606725,0.305644,0.0846133,0.221031,0.631429,0,0,0,0.0604681,7.35347
1075,0.606075,0.305513,0.0832379,0.222275,0.629026,0,0,0,0.0632973,8.18879
1080,0.593825,0.364237,0.0867299,0.277507,0.571474,0,0,0,0.0615118,7.94853
1085,0.57705,0.343009,0.0910848,0.251924,0.579869,0,0,0,0.0729076,9.3709
1090,0.575575,0.380649,0.0920269,0.288622,0.53828,0,0,0,0.0793497,9.57474
1095,0.5289,0.388296,0.0712187,0.317077,0.529026,0,0,0,0.0789788,10.3075
1100,0.493,0.375228,0.053657,0.321571,0.503099,0,0,0,0.116911,10.8586
1105,0.461375,0.433926,0.0695925,0.364334,0.452337,0,0,0,0.11092,10.7656
1110,0.4075,0.458312,0.0808412,0.377471,0.43065,0,0,0,0.1072,11.709
1115,0.22632,0.443496,0.0432226,0.400273,0.423073,0,0,0,0.12975,12.4567
1120,0.145405,0.479984,0.0770035,0.402981,0.368931,0,0,0,0.147472,12.7937
1125,0.115062,0.520109,0.0962567,0.423852,0.340856,0,0,0,0.138911,13.5293
1130,0.160113,0.469618,0.0660515,0.403567,0.33692,0,0,0,0.193023,14.9197
1135,0.1249,0.52656,0.0758989,0.450661,0.296307,0,0,0,0.17698,15.5689
1140,0.238875,0.587226,0.0688792,0.518347,0.266298,0,0,0,0.146416,16.8822
1145,0.1603,0.578554,0.0648774,0.513677,0.242597,0,0,0,0.178849,17.9123
1150,0.206275,0.607439,0.0663239,0.541115,0.200588,0,0,0,0.191923,17.7773
1155,0.257175,0.596665,0.0596194,0.537046,0.190269,0,0,0,0.205242,20.5592
1160,0.328825,0.61243,0.0881532,0.524277,0.16153,0,0,0,0.22604,23.2645
1165,0.405075,0.668575,0.0893751,0.5792,0.1366,0,0,0,0.194825,25.4734
1170,0.4394,0.631271,0.101117,0.530153,0.105533,0,0,0,0.263196,28.7061
1175,0.434775,0.634716,0.061489,0.573227,0.0747518,0,0,0,0.290532,29.2045
1180,0.416875,0.646779,0.0695107,0.577269,0.037631,0,0,0,0.313233,31.8051
1185,0.432525,0.715256,0.0795681,0.635688,0.027791,0,0,0,0.253994,30.5495
1190,0.427925,0.67932,0.0709648,0.608355,0.0203642,0,0,0,0.297562,30.7843
1195,0.454,0.692576,0.078565,0.614011,0.0160389,0,0,0,0.291385,30.2479
1200,0.4242,0.677689,0.0699582,0.607731,0.0119595,0,0,0,0.310351,29.3697

File: RAT_data_300um_2um_55.csv
Wavelength(nm),Spectral intensity (W m-2 nm-1),Reflection (Total),Reflection (External),Reflection (Escape),Absorption (Substrate),Absorption (Front films),Absorption (Rear films),Absorption (Detached reflector),Transmission,Pathlength enhancement factor (z)
900,0.74645,0.0800111,0.0800111,0,0.919126,0,0,0,0,1.3041
920,0.6726,0.0772769,0.0772769,0,0.920451,0,0,0,0,1.28387
940,0.30325,0.0729688,0.0729688,0,0.922271,0,0,0,6.28685e-05,1.44039
960,0.43975,0.0789367,0.0789367,0,0.918765,0,0,0,0.000203974,2.28139
980,0.668025,0.0748117,0.074801,1.06556e-05,0.9204,0,0,0,0.000688606,2.75521
1000,0.731575,0.0870086,0.0774751,0.00953351,0.90865,0,0,0,0.00142206,3.28148
1020,0.70075,0.112192,0.076104,0.036088,0.877686,0,0,0,0.00711485,3.75467
1040,0.66955,0.175654,0.0788448,0.096809,0.802211,0,0,0,0.0189137,4.53285
1060,0.63045,0.244715,0.0689173,0.175798,0.709175,0,0,0,0.0427373,6.46323
1080,0.592825,0.322782,0.0770416,0.245741,0.620604,0,0,0,0.052669,9.00406
1100,0.49625,0.429587,0.0830831,0.346504,0.483889,0,0,0,0.0840983,10.7346
1120,0.182265,0.487681,0.0681739,0.419507,0.385044,0,0,0,0.124542,13.3382
1140,0.184785,0.57884,0.0678492,0.51099,0.234596,0,0,0,0.182842,14.5024
1160,0.3266,0.622215,0.079257,0.542958,0.115541,0,0,0,0.260321,15.9669
1180,0.42725,0.64517,0.0675834,0.577587,0.0244611,0,0,0,0.326285,20.4489
1200,0.437325,0.68055,0.0741675,0.606383,0.0101678,0,0,0,0.305667,25.0849